Folder: Thermomechanically-triggered-multi-transformability-of-a-single-mesostructure-with-reverse-stiffness/matlab/Figure 1

Note: README.md
Thermomechanically triggered multi-transformability of a single mesostructure with reverse stiffness and localized prestress

Chao Song, Bihui Zou, Zhiming Cui, Zihe Liang, Jaehyung Ju 
UM-SJTU Joint Institute, Shanghai Jiao Tong University
800 Dongchuan Road, Shanghai 200240, China

Abstract:
Thermally triggered active metamaterials with shape memory polymers (SMPs) show greater potential for structural applications with reconfigurability than other programmable structures owing to their temporally stiff condition with shape locking. However, despite their excellent shape-locking property, most SMP-based active metamaterials have been described using simple single-modal deformation rather than multifaceted transformation, such as multimodal, multistep, or asymmetric deformation, because of the lack of an adequate method for an adaptable strategy and a reasonable mechanics model. Herein, we construct and demonstrate a thermomechanical tool that allows a single material system to transform with multimodal and asymmetric deformations. Using transformation aids (TAs), we conceive a localized prestress and a temperature-dependent reverse stiffness effect to exchange energy with a lattice. The deformation of a single SMP system whose energy is swapped from TAs by localized prestress and reverse stiffness can be transformed into multimodal and asymmetric deformations while maintaining the shape-locking property of the system. Our methods can be used for reconfigurable structures, tuning symmetry and chirality, especially for active acoustic metamaterials, deployable devices, and biomedical devices. The mechanics-inspired design approach of local deformation of TA and the interaction with the temperature-dependent stiffness drop of the lattice open an avenue to the robust design of thermally triggered active metamaterials.
Keywords: reconfigurable structures, programmable matter, mechanical metamaterials, smart materials

File: PLA.txt
Filename	PLA
Instrument name	0850-00115
Operator
rundate	2019/12/19
proceduresegments	DMA Oscillatory Temperature Ramp
[File Parameters]
Name	PLA
Instrument type	DMA850
Instrument serial number	0850-00115
Instrument name	0850-00115
Instrument location	MFG
Company name	TA
Trios version	4.4.0.41128
File name	D:\2019SJTU\密西根\朱宰亨\邹璧卉\1219 yp201979474\PLA.tri
Run date	2019/12/19 12:33:09
Preload Direction	-1.00000
Starting Force	0.00000
Starting Displacement	17254.8
Time at start of test	0.136161
[Clamp Parameters]
Geometry mass	21.42
Clamp Compliance	0.384603
Zero reference position	28.675
Tool mass calibration date	2019/12/2
Compliance calibration date	2019/12/2
[Firmware Versions]
InfoVerDsp	V2018.9.27
InfoVerWinCe	V2018.8.7
InfoVerDmaIface14	V2017.10.23
InfoVerDmaPower15	V2017.8.9
[Calibration Date Information]
InfoDateDynPhase	2018/11/9 14:33
InfoDateStaticNrm	2018/11/9 13:57
InfoDateTorqLag	2018/6/9 4:07
InfoDateADGain	2018/6/9 3:50
InfoDateInertiaPhase	2018/11/9 14:12
InfoDateInertiaMass	2018/6/11 20:32
InfoDateShaftMass	2018/6/9 3:26
InfoDateDmaForcePosn	2018/6/11 20:26
InfoDateDmaEncoderCorr	2018/6/11 20:30
InfoDateDmaInstStability	2018/11/9 13:52
InfoDateDmaTempOffset	2019/3/26 15:26
InfoDateDmaThermocoupleCal	2019/3/26 14:21
InfoDateSpare17	2018/6/9 3:23
[Calibration Parameters]
SPFrtScaleHi	1987.868
InfoOlStressTol	1.000e-2
InfoOlStressMaxCnt	0
InfoIntSpare8	0
Collect data only when stable	Enabled
Temperature option	None
[step]
Temperature Ramp - 1
Angular frequency	Step time	Temperature	Oscillation strain	Oscillation stress	Tan(delta)	Storage modulus	Loss modulus
rad/s	min	°C	%	MPa		MPa	MPa
6.28319	6.59967	-0.186	0.0438029	1.12739	0.0173747	2573.38	44.5714
6.28319	6.84967	0.007	0.0438157	1.12762	0.0169922	2573.19	44.3634
6.28319	7.09967	0.389	0.0437984	1.12687	0.0174098	2572.46	43.8331
6.28319	7.34967	0.833	0.0438389	1.12722	0.0168440	2570.92	43.6042
6.28319	7.59967	1.188	0.0438045	1.12631	0.0173888	2570.84	43.7735
6.28319	7.84967	1.618	0.0438179	1.12665	0.0170411	2570.83	43.4295
6.28319	8.09967	2.105	0.0438034	1.12555	0.0164345	2569.22	43.4289
6.28319	8.34967	2.725	0.0438460	1.12534	0.0175724	2566.18	43.1328
6.28319	8.59967	3.421	0.0438243	1.12372	0.0175818	2563.75	43.6332
6.28319	8.84967	4.181	0.0437988	1.12150	0.0170210	2560.20	43.7159
6.28319	9.09967	4.957	0.0438268	1.12197	0.0174695	2559.62	43.8718
6.28319	9.34967	5.767	0.0438280	1.12017	0.0176616	2555.44	43.4369
6.28319	9.59967	6.679	0.0438194	1.11857	0.0167845	2552.32	43.3461
6.28319	9.84966	7.518	0.0438269	1.11594	0.0177525	2545.84	43.2667
6.28319	10.0997	8.391	0.0438194	1.11459	0.0171250	2543.22	43.3325
6.28319	10.3497	9.310	0.0438004	1.11205	0.0169911	2538.53	43.3665
6.28319	10.5997	10.173	0.0437811	1.10967	0.0174870	2534.19	43.4861
6.28319	10.8497	11.009	0.0438119	1.10833	0.0168031	2529.39	44.3494
6.28319	11.0997	11.774	0.0438052	1.10734	0.0188713	2527.42	44.3041
6.28319	11.3497	12.655	0.0438259	1.10508	0.0184491	2521.10	44.1575
6.28319	11.5997	13.433	0.0437938	1.10209	0.0170188	2516.18	44.3666
6.28319	11.8497	14.234	0.0438065	1.10005	0.0182218	2510.73	44.7636
6.28319	12.0997	15.002	0.0438154	1.09710	0.0179889	2503.51	45.3067
6.28319	12.3497	15.716	0.0438121	1.09467	0.0188923	2498.11	44.8944
6.28319	12.5997	16.432	0.0438483	1.09286	0.0173160	2491.99	45.0102
6.28319	12.8497	17.149	0.0438069	1.09030	0.0182196	2488.48	44.9431
6.28319	13.0997	17.998	0.0438074	1.08789	0.0184572	2482.92	45.0592
6.28319	13.3497	18.745	0.0438457	1.08585	0.0173239	2476.14	44.8090
6.28319	13.5997	19.496	0.0437809	1.08242	0.0180034	2471.96	44.9224
6.28319	13.8497	20.191	0.0438048	1.08056	0.0187089	2466.34	45.4989
6.28319	14.0997	20.957	0.0438347	1.07885	0.0183614	2460.78	45.9250
6.28319	14.3497	21.653	0.0437882	1.07430	0.0190622	2452.95	46.2623
6.28319	14.5997	22.450	0.0438583	1.07288	0.0190789	2445.78	46.3306
6.28319	14.8497	23.148	0.0438157	1.06833	0.0193962	2437.78	46.5869
6.28319	15.0997	23.877	0.0437968	1.06553	0.0186487	2432.47	46.6158
6.28319	15.3497	24.577	0.0437529	1.06354	0.0188808	2430.35	46.8594
6.28319	15.5997	25.350	0.0438519	1.06075	0.0193962	2418.49	47.4662
6.28319	15.8497	26.077	0.0438390	1.05490	0.0218485	2405.73	48.0364
6.28319	16.0997	26.870	0.0438508	1.05350	0.0199205	2401.99	48.3037
6.28319	16.3497	27.583	0.0438343	1.05077	0.0201924	2396.64	48.8079
6.28319	16.5997	28.334	0.0437866	1.04601	0.0207544	2388.38	49.5132
6.28319	16.8497	29.081	0.0437975	1.04431	0.0201300	2383.93	50.1945
6.28319	17.0997	29.867	0.0438207	1.03987	0.0213972	2372.47	50.3587
6.28319	17.3497	30.667	0.0438227	1.03557	0.0212936	2362.55	51.0037
6.28319	17.5997	31.371	0.0438139	1.03207	0.0222394	2355.01	51.8123
6.28319	17.8497	32.129	0.0438459	1.02969	0.0221418	2347.86	52.8809
6.28319	18.0997	32.879	0.0438243	1.02549	0.0221852	2339.43	53.6297
6.28319	18.3497	33.664	0.0438753	1.02300	0.0236371	2330.94	54.3889
6.28319	18.5997	34.383	0.0438248	1.01786	0.0238570	2321.90	55.2819
6.28319	18.8497	35.161	0.0437994	1.01350	0.0236859	2313.30	56.0680
6.28319	19.0997	35.838	0.0438558	1.01113	0.0244788	2304.90	56.7179
6.28319	19.3497	36.619	0.0437988	1.00531	0.0245327	2294.60	57.3023
6.28319	19.5997	37.445	0.0438388	1.00148	0.0248218	2283.75	58.9915
6.28319	19.8497	38.130	0.0438613	0.996422	0.0271730	2270.92	60.2456
6.28319	20.0997	38.867	0.0438286	0.991565	0.0268195	2261.55	62.1082
6.28319	20.3497	39.643	0.0438086	0.986169	0.0281643	2250.19	63.6908
6.28319	20.5997	40.339	0.0438292	0.979906	0.0283898	2234.84	65.5548
6.28319	20.8497	41.145	0.0438229	0.974212	0.0297857	2222.08	68.0101
6.28319	21.0997	41.850	0.0438231	0.968532	0.0312910	2209.01	70.8208
6.28319	21.3497	42.602	0.0438548	0.960320	0.0356446	2188.38	74.4861
6.28319	21.5997	43.332	0.0438449	0.950620	0.0362010	2166.72	78.1476
6.28319	21.8497	44.097	0.0438787	0.942196	0.0379370	2145.73	81.4025
6.28319	22.0997	44.875	0.0438307	0.930975	0.0425592	2122.10	90.3150
6.28319	22.3497	45.623	0.0439227	0.918086	0.0475093	2087.88	99.1935
6.28319	22.5997	46.432	0.0438929	0.903044	0.0520778	2054.60	106.999
6.28319	22.8497	47.106	0.0439229	0.881947	0.0608117	2004.24	121.881
6.28319	23.0997	47.843	0.0439446	0.856759	0.0731141	1944.44	142.166
6.28319	23.3497	48.636	0.0439942	0.828359	0.0879656	1875.64	164.992
6.28319	23.5997	49.356	0.0440548	0.792447	0.109645	1788.06	196.052
6.28319	23.8497	50.166	0.0440886	0.744797	0.138229	1673.41	231.314
6.28319	24.0997	50.950	0.0441392	0.696079	0.173072	1553.91	268.937
6.28319	24.3497	51.679	0.0441676	0.636269	0.222517	1406.19	312.901
6.28319	24.5997	52.457	0.0443003	0.578915	0.277818	1259.11	349.804
6.28319	24.8497	53.189	0.0444272	0.503098	0.361250	1065.05	384.748
6.28319	25.0997	53.911	0.0445580	0.424082	0.471934	860.717	406.202
6.28319	25.3497	54.670	0.0448211	0.343421	0.606990	654.986	397.570
6.28319	25.5997	55.394	0.0452883	0.269526	0.780795	469.083	366.257
6.28319	25.8497	56.141	0.0454366	0.198691	1.00867	307.875	310.545
6.28319	26.0997	56.935	0.0454134	0.143542	1.26417	196.766	247.363
6.28319	26.3580	57.700	0.0458458	0.100426	1.57769	117.067	185.145
6.28319	26.5830	58.319	0.0449403	0.0729545	1.86020	76.5526	143.153
6.28319	26.9330	59.347	0.0458173	0.0411140	2.26725	35.8624	82.2570
6.28319	27.2330	60.250	0.0455137	0.0252247	2.37807	21.6246	51.0293
6.28319	27.4830	61.067	0.0457624	0.0177207	2.28060	15.5969	35.4433
6.28319	27.7413	61.798	0.0458183	0.0127117	2.05283	12.1713	24.9314
6.28319	27.9830	62.582	0.0454323	9.31717e-3	1.76528	10.1035	17.8463
6.28319	28.2413	63.361	0.0452026	6.72881e-3	1.45375	8.40705	12.2846
6.28319	28.4830	64.099	0.0447301	5.30181e-3	1.21225	7.54251	9.14340
6.28319	28.7330	64.866	0.0449228	4.25493e-3	0.996719	6.70847	6.68646
6.28319	28.9830	65.607	0.0445550	3.58895e-3	0.854429	6.12409	5.23260
6.28319	29.2330	66.380	0.0444190	3.11851e-3	0.737482	5.65031	4.16700
6.28319	29.4830	67.058	0.0442045	2.76239e-3	0.641270	5.26042	3.37335
6.28319	29.7330	67.846	0.0441882	2.50204e-3	0.564800	4.93022	2.78459
6.28319	29.9830	68.577	0.0443341	2.29477e-3	0.500697	4.62834	2.31739
6.28319	30.2330	69.267	0.0442200	2.12336e-3	0.444965	4.38710	1.95211
6.28319	30.4830	70.020	0.0440271	1.99376e-3	0.409578	4.19062	1.71639
6.28319	30.7330	70.778	0.0439515	1.87144e-3	0.369974	3.99342	1.47746
6.28319	30.9830	71.541	0.0438806	1.79285e-3	0.335800	3.87321	1.30063
6.28319	31.2497	72.225	0.0440665	1.70334e-3	0.313638	3.68823	1.15677
6.28319	31.4913	72.955	0.0437457	1.64100e-3	0.292014	3.60085	1.05150
6.28319	31.7330	73.715	0.0443454	1.59374e-3	0.262956	3.47577	0.913975
6.28319	31.9997	74.473	0.0438788	1.52420e-3	0.251294	3.36892	0.846591
6.28319	32.2413	75.246	0.0437355	1.47694e-3	0.235814	3.28682	0.775079
6.28319	32.4997	76.125	0.0437946	1.45272e-3	0.231282	3.23181	0.747459
6.28319	32.7747	76.940	0.0438551	1.42700e-3	0.218682	3.17878	0.695141
6.28319	33.0163	77.693	0.0439525	1.40369e-3	0.215478	3.12200	0.672723
6.28319	33.2913	78.500	0.0435020	1.36904e-3	0.208359	3.08092	0.641935
6.28319	33.5330	79.241	0.0437859	1.35785e-3	0.203768	3.03867	0.619184
6.28319	33.7997	79.974	0.0437954	1.34165e-3	0.207962	2.99927	0.623735
6.28319	34.0580	80.764	0.0440299	1.32951e-3	0.203239	2.95906	0.601396
6.28319	34.3163	81.621	0.0437618	1.32132e-3	0.206669	2.95686	0.611093
6.28319	34.5663	82.281	0.0436724	1.29557e-3	0.200316	2.90879	0.582675
6.28319	34.8163	83.115	0.0439475	1.29827e-3	0.209244	2.89151	0.605030
6.28319	35.0830	83.939	0.0438371	1.28906e-3	0.215571	2.87454	0.619670
6.28319	35.3330	84.677	0.0439106	1.28257e-3	0.219275	2.85307	0.625609
6.28319	35.6080	85.445	0.0441945	1.27424e-3	0.222253	2.81457	0.625546
6.28319	35.8497	86.169	0.0438486	1.27348e-3	0.230163	2.83027	0.651424
6.28319	36.1247	86.989	0.0439217	1.26232e-3	0.237697	2.79612	0.664628
6.28319	36.3830	87.782	0.0442279	1.24408e-3	0.234854	2.73838	0.643121
6.28319	36.6413	88.499	0.0435876	1.24236e-3	0.250589	2.76478	0.692822
6.28319	36.8913	89.282	0.0440389	1.23828e-3	0.247107	2.72968	0.674524
6.28319	37.1497	90.088	0.0437722	1.24019e-3	0.251808	2.74753	0.691848
6.28319	37.3997	90.751	0.0439123	1.24412e-3	0.267718	2.73681	0.732693
6.28319	37.6497	91.524	0.0435226	1.25627e-3	0.262111	2.79216	0.731855
6.28319	37.8913	92.236	0.0438375	1.25337e-3	0.266840	2.76247	0.737138
6.28319	38.1497	93.036	0.0439484	1.27107e-3	0.266184	2.79486	0.743948
6.28319	38.4163	93.833	0.0437428	1.28209e-3	0.270231	2.82948	0.764614
6.28319	38.6830	94.632	0.0436848	1.31401e-3	0.272309	2.90225	0.790307
6.28319	38.9163	95.375	0.0440020	1.36967e-3	0.265908	3.00821	0.799908
6.28319	39.1913	96.156	0.0435841	1.40339e-3	0.270244	3.10844	0.840040
6.28319	39.4330	96.937	0.0436745	1.48348e-3	0.270122	3.27914	0.885769
6.28319	39.6663	97.702	0.0440249	1.55333e-3	0.257520	3.41682	0.879900
6.28319	39.9163	98.442	0.0439244	1.66050e-3	0.262350	3.65662	0.959314
6.28319	40.0413	98.791	0.0433989	1.74176e-3	0.264692	3.87976	1.02694